File: data/20221005_111011_SS_2_2_1_xrd_test_1_1.dat
# UNIX time, Current (A), PS Voltage (V), REF Voltage (V)
# SAMPLE_SURFACE = 2.83
# SAMPLE_NAME = SS_2_2_1_xrd_test_1
# COATING_STEP = 1
1.66497e+09	-0.000000000000000000e+00	0.001
1.66497e+09	-0.000000000000000000e+00	0.000000000000000000e+00
1.66497e+09	-0.000000000000000000e+00	0.001
1.66497e+09	-0.000000000000000000e+00	0.000000000000000000e+00
1.66497e+09	-0.000000000000000000e+00	0.001
1.66497e+09	-0.000000000000000000e+00	0.001
1.66497e+09	-0.000000000000000000e+00	0.001
1.66497e+09	-0.000000000000000000e+00	0.001
1.66497e+09	-0.000000000000000000e+00	0.001
1.66497e+09	-0.000000000000000000e+00	0.001
1.66497e+09	-0.000000000000000000e+00	0.001
1.66497e+09	-0.000000000000000000e+00	0.001
1.66497e+09	-0.000000000000000000e+00	0.001
1.66497e+09	-0.000000000000000000e+00	0.001
1.66497e+09	-0.000000000000000000e+00	0.001
1.66497e+09	-0.000000000000000000e+00	0.001
1.66497e+09	-0.000000000000000000e+00	0.000000000000000000e+00
1.66497e+09	-0.000000000000000000e+00	0.001
1.66497e+09	-0.000000000000000000e+00	0.001
1.66497e+09	-0.000000000000000000e+00	0.001
1.66497e+09	-0.000000000000000000e+00	0.001
1.66497e+09	-0.000000000000000000e+00	0.001
1.66497e+09	-0.000000000000000000e+00	0.001
1.66497e+09	-0.000000000000000000e+00	0.001
1.66497e+09	-0.000000000000000000e+00	0.000000000000000000e+00
1.66497e+09	-0.000000000000000000e+00	0.001
1.66497e+09	-0.000000000000000000e+00	0.001
1.66497e+09	-0.000000000000000000e+00	0.001
1.66497e+09	-0.000000000000000000e+00	0.000000000000000000e+00
1.66497e+09	-0.000000000000000000e+00	0.000000000000000000e+00
1.66497e+09	0.144	0.678
1.66497e+09	-0.000000000000000000e+00	2.001
1.66497e+09	-0.000000000000000000e+00	2.002
1.66497e+09	-0.000000000000000000e+00	2.001
1.66497e+09	-0.000000000000000000e+00	2.002
1.66497e+09	-0.000000000000000000e+00	2.001
1.66497e+09	-0.000000000000000000e+00	2.001
1.66497e+09	-0.000000000000000000e+00	2.001
1.66497e+09	-0.000000000000000000e+00	2.001
1.66497e+09	-0.000000000000000000e+00	2.002
1.66497e+09	-0.000000000000000000e+00	2.001
1.66497e+09	-0.000000000000000000e+00	2.002
1.66497e+09	-0.000000000000000000e+00	2.001
1.66497e+09	-0.000000000000000000e+00	2.002
1.66497e+09	-0.000000000000000000e+00	2.001
1.66497e+09	-0.000000000000000000e+00	2.001
1.66497e+09	-0.000000000000000000e+00	2.001
1.66497e+09	-0.000000000000000000e+00	2.002
1.66497e+09	-0.000000000000000000e+00	2.002
1.66497e+09	-0.000000000000000000e+00	2.002
1.66497e+09	-0.000000000000000000e+00	2.002
1.66497e+09	-0.000000000000000000e+00	2.002
1.66497e+09	-0.000000000000000000e+00	2.001
1.66497e+09	-0.000000000000000000e+00	2.001
1.66497e+09	-0.000000000000000000e+00	2.001
1.66497e+09	-0.000000000000000000e+00	2.001
1.66497e+09	-0.000000000000000000e+00	2.002
1.66497e+09	-0.000000000000000000e+00	2.002
1.66497e+09	-0.000000000000000000e+00	2.002
1.66497e+09	-0.000000000000000000e+00	2.002
1.66497e+09	-0.000000000000000000e+00	2.001
1.66497e+09	-0.000000000000000000e+00	2.002
1.66497e+09	-0.000000000000000000e+00	2.001
1.66497e+09	-0.000000000000000000e+00	2.001
1.66497e+09	-0.000000000000000000e+00	2.001
1.66497e+09	-0.000000000000000000e+00	2.002
1.66497e+09	-0.000000000000000000e+00	2.002
1.66497e+09	-0.000000000000000000e+00	2.002
1.66497e+09	-0.000000000000000000e+00	2.001
1.66497e+09	-0.000000000000000000e+00	2.001
1.66497e+09	-0.000000000000000000e+00	2.002
1.66497e+09	-0.000000000000000000e+00	2.001
1.66497e+09	-0.000000000000000000e+00	2.001
1.66497e+09	-0.000000000000000000e+00	2.001
1.66497e+09	-0.000000000000000000e+00	2.001
1.66497e+09	-0.000000000000000000e+00	2.002
1.66497e+09	-0.000000000000000000e+00	2.002
1.66497e+09	-0.000000000000000000e+00	2.001
1.66497e+09	-0.000000000000000000e+00	2.002
1.66497e+09	-0.000000000000000000e+00	2.001
1.66497e+09	-0.000000000000000000e+00	2.002
1.66497e+09	-0.000000000000000000e+00	2.001
1.66497e+09	-0.000000000000000000e+00	2.002
1.66497e+09	-0.000000000000000000e+00	2.002
1.66497e+09	-0.000000000000000000e+00	2.002
1.66497e+09	-0.000000000000000000e+00	2.001
1.66497e+09	-0.000000000000000000e+00	2.002
1.66497e+09	-0.000000000000000000e+00	2.001
1.66497e+09	-0.000000000000000000e+00	2.002
1.66497e+09	-0.000000000000000000e+00	2.001
1.66497e+09	-0.000000000000000000e+00	2.002
1.66497e+09	-0.000000000000000000e+00	2.002
1.66497e+09	-0.000000000000000000e+00	2.001
1.66497e+09	-0.000000000000000000e+00	2.002
1.66497e+09	-0.000000000000000000e+00	2.001
1.66497e+09	-0.000000000000000000e+00	2.001
1.66497e+09	-0.000000000000000000e+00	2.001
1.66497e+09	-0.000000000000000000e+00	2.002
1.66497e+09	-0.000000000000000000e+00	2.002
1.66497e+09	-0.000000000000000000e+00	2.002
1.66497e+09	-0.000000000000000000e+00	2.002
1.66497e+09	-0.000000000000000000e+00	2.001
1.66497e+09	-0.000000000000000000e+00	2.001
1.66497e+09	-0.000000000000000000e+00	2.001
1.66497e+09	-0.000000000000000000e+00	2.002
1.66497e+09	-0.000000000000000000e+00	2.001
1.66497e+09	-0.000000000000000000e+00	2.001
1.66497e+09	-0.000000000000000000e+00	2.002
1.66497e+09	-0.000000000000000000e+00	2.001
1.66497e+09	-0.000000000000000000e+00	2.001
1.66497e+09	-0.000000000000000000e+00	2.001
1.66497e+09	-0.000000000000000000e+00	2.002
1.66497e+09	-0.000000000000000000e+00	2.001
1.66497e+09	-0.000000000000000000e+00	2.002
1.66497e+09	-0.000000000000000000e+00	2.001
1.66497e+09	-0.000000000000000000e+00	2.001
1.66497e+09	-0.000000000000000000e+00	2.002
1.66497e+09	-0.000000000000000000e+00	2.001
1.66497e+09	-0.000000000000000000e+00	2.002
1.66497e+09	-0.000000000000000000e+00	2.001
1.66497e+09	-0.000000000000000000e+00	2.002
1.66497e+09	-0.000000000000000000e+00	2.002
1.66497e+09	-0.000000000000000000e+00	2.002
1.66497e+09	-0.000000000000000000e+00	2.001
1.66497e+09	-0.000000000000000000e+00	2.002
1.66497e+09	-0.000000000000000000e+00	2.002
1.66497e+09	-0.000000000000000000e+00	2.002
1.66497e+09	-0.000000000000000000e+00	2.002
1.66497e+09	-0.000000000000000000e+00	2.002
1.66497e+09	-0.000000000000000000e+00	2.002
1.66497e+09	-0.000000000000000000e+00	2.002
1.66497e+09	-0.000000000000000000e+00	2.001
1.66497e+09	-0.000000000000000000e+00	2.002
1.66497e+09	-0.000000000000000000e+00	2.002
1.66497e+09	-0.000000000000000000e+00	2.002
1.66497e+09	-0.000000000000000000e+00	2.002
1.66497e+09	-0.000000000000000000e+00	2.001
1.66497e+09	-0.000000000000000000e+00	2.002
1.66497e+09	-0.000000000000000000e+00	2.001
1.66497e+09	-0.000000000000000000e+00	2.001
1.66497e+09	-0.000000000000000000e+00	2.002
1.66497e+09	-0.000000000000000000e+00	2.002
1.66497e+09	-0.000000000000000000e+00	2.001
1.66497e+09	-0.000000000000000000e+00	2.002
1.66497e+09	-0.000000000000000000e+00	2.002
1.66497e+09	-0.000000000000000000e+00	2.002
1.66497e+09	-0.000000000000000000e+00	2.002
1.66497e+09	-0.000000000000000000e+00	2.002
1.66497e+09	-0.000000000000000000e+00	2.001
1.66497e+09	-0.000000000000000000e+00	2.001
1.66497e+09	-0.000000000000000000e+00	2.001
1.66497e+09	-0.000000000000000000e+00	2.002
1.66497e+09	-0.000000000000000000e+00	2.001
1.66497e+09	-0.000000000000000000e+00	2.002
1.66497e+09	-0.000000000000000000e+00	2.002
1.66497e+09	-0.000000000000000000e+00	2.002
1.66497e+09	-0.000000000000000000e+00	2.002
1.66497e+09	-0.000000000000000000e+00	2.002
1.66497e+09	-0.000000000000000000e+00	2.002
1.66497e+09	-0.000000000000000000e+00	2.002
1.66497e+09	-0.000000000000000000e+00	2.001
1.66497e+09	-0.000000000000000000e+00	2.002
1.66497e+09	-0.000000000000000000e+00	2.002
1.66497e+09	-0.000000000000000000e+00	2.001
1.66497e+09	-0.000000000000000000e+00	2.001
1.66497e+09	-0.000000000000000000e+00	2.002
1.66497e+09	-0.000000000000000000e+00	2.001
1.66497e+09	-0.000000000000000000e+00	2.001
1.66497e+09	-0.000000000000000000e+00	2.001
1.66497e+09	-0.000000000000000000e+00	2.001
1.66497e+09	-0.000000000000000000e+00	2.001
1.66497e+09	-0.000000000000000000e+00	2.002
1.66497e+09	-0.000000000000000000e+00	2.002
1.66497e+09	-0.000000000000000000e+00	2.001
1.66497e+09	-0.000000000000000000e+00	2.001
1.66497e+09	-0.000000000000000000e+00	2.001
1.66497e+09	-0.000000000000000000e+00	2.001
1.66497e+09	-0.000000000000000000e+00	2.002
1.66497e+09	-0.000000000000000000e+00	2.001
1.66497e+09	-0.000000000000000000e+00	2.001
1.66497e+09	-0.000000000000000000e+00	2.001
1.66497e+09	-0.000000000000000000e+00	2.002
1.66497e+09	-0.000000000000000000e+00	2.001
1.66497e+09	-0.000000000000000000e+00	2.002
1.66497e+09	-0.000000000000000000e+00	2.002
1.66497e+09	-0.000000000000000000e+00	2.002
1.66497e+09	-0.000000000000000000e+00	2.001
1.66497e+09	-0.000000000000000000e+00	2.002
1.66497e+09	-0.000000000000000000e+00	2.002
1.66497e+09	-0.000000000000000000e+00	2.001
1.66497e+09	-0.000000000000000000e+00	2.002
1.66497e+09	-0.000000000000000000e+00	2.002
1.66497e+09	-0.000000000000000000e+00	2.001
1.66497e+09	-0.000000000000000000e+00	2.002
1.66497e+09	-0.000000000000000000e+00	2.002
1.66497e+09	-0.000000000000000000e+00	2.001
1.66497e+09	-0.000000000000000000e+00	2.001
1.66497e+09	-0.000000000000000000e+00	2.001
1.66497e+09	-0.000000000000000000e+00	2.001
1.66497e+09	-0.000000000000000000e+00	2.001
1.66497e+09	-0.000000000000000000e+00	2.001
1.66497e+09	-0.000000000000000000e+00	2.002
1.66497e+09	-0.000000000000000000e+00	2.002
1.66497e+09	-0.000000000000000000e+00	2.001
1.66497e+09	-0.000000000000000000e+00	2.001
1.66497e+09	-0.000000000000000000e+00	2.002
1.66497e+09	-0.000000000000000000e+00	2.002
1.66497e+09	-0.000000000000000000e+00	2.002
1.66497e+09	-0.000000000000000000e+00	2.002
1.66497e+09	-0.000000000000000000e+00	2.002
1.66497e+09	-0.000000000000000000e+00	2.001
1.66497e+09	-0.000000000000000000e+00	2.001
1.66497e+09	-0.000000000000000000e+00	2.001
1.66497e+09	-0.000000000000000000e+00	2.002
1.66497e+09	-0.000000000000000000e+00	2.002
1.66497e+09	-0.000000000000000000e+00	2.002
1.66497e+09	-0.000000000000000000e+00	2.002
1.66497e+09	-0.000000000000000000e+00	2.001
1.66497e+09	-0.000000000000000000e+00	2.001
1.66497e+09	-0.000000000000000000e+00	2.002
1.66497e+09	-0.000000000000000000e+00	2.001
1.66497e+09	-0.000000000000000000e+00	2.002
1.66497e+09	-0.000000000000000000e+00	2.001
1.66497e+09	-0.000000000000000000e+00	2.001
1.66497e+09	-0.000000000000000000e+00	2.001
1.66497e+09	-0.000000000000000000e+00	2.002
1.66497e+09	-0.000000000000000000e+00	2.001
1.66497e+09	-0.000000000000000000e+00	2.002
1.66497e+09	-0.000000000000000000e+00	2.001
1.66497e+09	-0.000000000000000000e+00	2.001
1.66497e+09	-0.000000000000000000e+00	2.002
1.66497e+09	-0.000000000000000000e+00	2.001
1.66497e+09	-0.000000000000000000e+00	2.001
1.66497e+09	-0.000000000000000000e+00	2.001
1.66497e+09	-0.000000000000000000e+00	2.002
1.66497e+09	-0.000000000000000000e+00	2.001
1.66497e+09	-0.000000000000000000e+00	2.002
1.66497e+09	-0.000000000000000000e+00	2.001
1.66497e+09	-0.000000000000000000e+00	2.002
1.66497e+09	-0.000000000000000000e+00	2.001
1.66497e+09	-0.000000000000000000e+00	2.002
1.66497e+09	-0.000000000000000000e+00	2.001
1.66497e+09	-0.000000000000000000e+00	2.002
1.66497e+09	-0.000000000000000000e+00	2.001
1.66497e+09	-0.000000000000000000e+00	2.002
1.66497e+09	-0.000000000000000000e+00	2.002
1.66497e+09	-0.000000000000000000e+00	2.001
1.66497e+09	-0.000000000000000000e+00	2.001
1.66497e+09	-0.000000000000000000e+00	2.001
1.66497e+09	-0.000000000000000000e+00	2.002
1.66497e+09	-0.000000000000000000e+00	2.002
1.66497e+09	-0.000000000000000000e+00	2.001
1.66497e+09	-0.000000000000000000e+00	2.001
1.66497e+09	-0.000000000000000000e+00	2.002
1.66497e+09	-0.000000000000000000e+00	2.002
1.66497e+09	-0.000000000000000000e+00	2.002
1.66497e+09	-0.000000000000000000e+00	2.001
1.66497e+09	-0.000000000000000000e+00	2.002
1.66497e+09	-0.000000000000000000e+00	2.002
1.66497e+09	-0.000000000000000000e+00	2.002
1.66497e+09	-0.000000000000000000e+00	2.002
1.66497e+09	-0.000000000000000000e+00	2.001
1.66497e+09	-0.000000000000000000e+00	2.001
1.66497e+09	-0.000000000000000000e+00	2.001
1.66497e+09	-0.000000000000000000e+00	2.002
1.66497e+09	-0.000000000000000000e+00	2.001
1.66497e+09	-0.000000000000000000e+00	2.002
1.66497e+09	-0.000000000000000000e+00	2.002
1.66497e+09	-0.000000000000000000e+00	2.001
1.66497e+09	-0.000000000000000000e+00	2.001
1.66497e+09	-0.000000000000000000e+00	2.002
1.66497e+09	-0.000000000000000000e+00	2.001
1.66497e+09	0.142	1.82
1.66497e+09	0.143	0.873
1.66497e+09	0.142	1.12
1.66497e+09	0.142	1.255
1.66497e+09	0.142	1.227
1.66497e+09	0.142	1.225
1.66497e+09	0.143	1.218
1.66497e+09	0.143	1.218
1.66497e+09	0.142	1.214
1.66497e+09	0.142	1.219
1.66497e+09	0.142	1.218
1.66497e+09	0.142	1.22
1.66497e+09	0.142	1.219
1.66497e+09	0.142	1.216
1.66497e+09	0.142	1.217
1.66497e+09	0.142	1.215
1.66497e+09	0.142	1.226
1.66497e+09	0.143	1.228
1.66497e+09	0.143	1.235
1.66497e+09	0.142	1.238
1.66497e+09	0.143	1.234
1.66497e+09	0.143	1.235
1.66497e+09	0.143	1.235
1.66497e+09	0.143	1.231
1.66497e+09	0.142	1.229
1.66497e+09	0.143	1.229
1.66497e+09	0.142	1.233
1.66497e+09	0.142	1.24
1.66497e+09	0.142	1.245
1.66497e+09	0.143	1.262
1.66497e+09	0.143	1.264
1.66497e+09	0.143	1.261
1.66497e+09	0.143	1.261
1.66497e+09	0.143	1.266
1.66497e+09	0.142	1.27
1.66497e+09	0.143	1.274
1.66497e+09	0.143	1.294
1.66497e+09	0.143	1.305
1.66497e+09	0.143	1.305
1.66497e+09	0.142	1.294
1.66497e+09	0.143	1.293
1.66497e+09	0.142	1.287
1.66497e+09	0.143	1.282
1.66497e+09	0.143	1.279
1.66497e+09	0.142	1.273
1.66497e+09	0.143	1.283
1.66497e+09	0.142	1.287
1.66497e+09	0.142	1.294
1.66497e+09	0.143	1.288
1.66497e+09	0.142	0.983
1.66497e+09	0.143	0.94
1.66497e+09	0.142	0.936
1.66497e+09	0.143	0.937
1.66497e+09	0.143	0.938
1.66497e+09	0.142	0.937
1.66497e+09	0.143	0.933
1.66497e+09	0.142	0.931
1.66497e+09	0.143	0.93
1.66497e+09	0.143	0.932
1.66497e+09	0.143	0.931
1.66497e+09	0.143	0.931
1.66497e+09	0.143	0.93
1.66497e+09	0.142	0.927
1.66497e+09	0.142	0.927
1.66497e+09	0.142	0.926
1.66497e+09	0.145	0.918
1.66497e+09	0.143	0.914
1.66497e+09	0.143	0.913
1.66497e+09	0.143	0.917
1.66497e+09	0.143	0.92
1.66497e+09	0.142	0.921
1.66497e+09	0.143	0.922
1.66497e+09	0.142	0.925
1.66497e+09	0.142	0.928
1.66497e+09	0.143	0.928
1.66497e+09	0.143	0.924
1.66497e+09	0.143	0.923
1.66497e+09	0.143	0.922
1.66497e+09	0.143	0.919
1.66497e+09	0.143	0.915
1.66497e+09	0.143	0.915
1.66497e+09	0.143	0.915
1.66497e+09	0.142	0.915
1.66497e+09	0.143	0.916
1.66497e+09	0.142	0.916
1.66497e+09	0.142	0.915
1.66497e+09	0.143	0.917
1.66497e+09	0.143	0.916
1.66497e+09	0.143	0.915
1.66497e+09	0.142	0.916
1.66497e+09	0.142	0.915
1.66497e+09	0.141	0.909
1.66497e+09	0.143	0.905
1.66497e+09	0.143	0.899
1.66497e+09	0.142	0.898
1.66497e+09	0.142	0.896
1.66497e+09	0.142	0.896
1.66497e+09	0.143	0.895
1.66497e+09	0.143	0.892
1.66497e+09	0.142	0.893
1.66497e+09	0.143	0.895
1.66497e+09	0.143	0.896
1.66497e+09	0.142	0.896
1.66497e+09	0.143	0.893
1.66497e+09	0.142	0.885
1.66497e+09	0.03	0.508
1.66497e+09	0.029	0.257
1.66497e+09	0.03	0.192
1.66497e+09	0.031	0.175
1.66497e+09	0.031	0.171
1.66497e+09	0.03	0.169
1.66497e+09	0.031	0.17
1.66497e+09	0.031	0.168
1.66497e+09	0.03	0.166
1.66497e+09	0.03	0.166
1.66497e+09	0.031	0.169
1.66497e+09	0.03	0.169
1.66497e+09	0.029	0.168
1.66497e+09	0.031	0.169
1.66497e+09	0.03	0.169
1.66497e+09	0.03	0.17
1.66497e+09	0.03	0.172
1.66497e+09	0.031	0.171
1.66497e+09	0.03	0.171
1.66497e+09	0.03	0.17
1.66497e+09	0.03	0.17
1.66497e+09	0.031	0.169
1.66497e+09	0.029	0.166
1.66497e+09	0.029	0.16
1.66497e+09	0.031	0.155
1.66497e+09	0.031	0.153
1.66497e+09	0.03	0.155
1.66497e+09	0.03	0.155
1.66497e+09	0.031	0.155
1.66497e+09	0.029	0.155
1.66497e+09	0.03	0.152
1.66497e+09	0.03	0.151
1.66497e+09	0.03	0.151
1.66497e+09	0.031	0.155
1.66497e+09	0.031	0.158
1.66497e+09	0.03	0.16
1.66497e+09	0.03	0.162
1.66497e+09	0.031	0.163
1.66497e+09	0.03	0.164
1.66497e+09	0.03	0.166
1.66497e+09	0.03	0.168
1.66497e+09	0.03	0.17
1.66497e+09	0.03	0.17
1.66497e+09	0.03	0.169
1.66497e+09	0.029	0.169
1.66497e+09	0.03	0.167
1.66497e+09	0.031	0.165
1.66497e+09	0.029	0.165
1.66497e+09	0.031	0.163
1.66497e+09	0.03	0.163
1.66497e+09	0.031	0.161
1.66497e+09	0.03	0.161
1.66497e+09	0.031	0.162
1.66497e+09	0.03	0.164
1.66497e+09	0.03	0.166
1.66497e+09	0.03	0.17
1.66497e+09	0.031	0.174
1.66497e+09	0.031	0.177
1.66497e+09	0.03	0.178
1.66497e+09	0.029	0.176
1.66497e+09	0.031	0.175
1.66497e+09	0.03	0.175
1.66497e+09	0.03	0.175
1.66497e+09	0.029	0.174
1.66497e+09	0.031	0.175
1.66497e+09	0.03	0.177
1.66497e+09	0.03	0.179
1.66497e+09	0.029	0.178
1.66497e+09	0.03	0.177
1.66497e+09	0.031	0.178
1.66497e+09	0.03	0.181
1.66497e+09	0.03	0.183
1.66497e+09	0.03	0.188
1.66497e+09	0.03	0.192
1.66497e+09	0.03	0.195
1.66497e+09	0.031	0.195
1.66497e+09	0.029	0.195
1.66497e+09	0.031	0.193
1.66497e+09	0.03	0.19
1.66497e+09	0.03	0.189
1.66497e+09	0.03	0.18
1.66497e+09	0.029	0.173
1.66497e+09	0.029	0.171
1.66497e+09	0.031	0.175
1.66497e+09	0.03	0.177
1.66497e+09	0.03	0.178
1.66497e+09	0.03	0.179
1.66497e+09	0.03	0.181
1.66497e+09	0.03	0.183
1.66497e+09	0.029	0.183
1.66497e+09	0.03	0.182
1.66497e+09	0.03	0.183
1.66497e+09	0.03	0.185
1.66497e+09	0.03	0.186
1.66497e+09	0.03	0.187
1.66497e+09	0.029	0.189
1.66497e+09	0.031	0.188
1.66497e+09	0.03	0.188
1.66497e+09	0.031	0.189
1.66497e+09	0.03	0.19
1.66497e+09	0.03	0.191
1.66497e+09	0.03	0.191
1.66497e+09	0.031	0.191
1.66497e+09	0.03	0.192
1.66497e+09	0.03	0.193
1.66497e+09	0.031	0.193
1.66497e+09	0.031	0.194
1.66497e+09	0.03	0.193
1.66497e+09	0.031	0.192
1.66497e+09	0.03	0.192
1.66497e+09	0.031	0.189
1.66497e+09	0.031	0.185
1.66497e+09	0.03	0.182
1.66497e+09	0.031	0.181
1.66497e+09	0.029	0.179
1.66497e+09	0.03	0.179
1.66497e+09	0.03	0.178
1.66497e+09	0.03	0.179
1.66497e+09	0.03	0.18
1.66497e+09	0.03	0.179
1.66497e+09	0.03	0.178
1.66497e+09	0.03	0.178
1.66497e+09	0.031	0.181
1.66497e+09	0.029	0.184
1.66497e+09	0.03	0.187
1.66497e+09	0.03	0.19
1.66497e+09	0.03	0.191
1.66497e+09	0.03	0.191
1.66497e+09	0.03	0.192
1.66497e+09	0.031	0.193
1.66497e+09	0.029	0.194
1.66497e+09	0.031	0.192
1.66497e+09	0.031	0.191
1.66497e+09	0.031	0.191
1.66497e+09	0.03	0.191
1.66497e+09	0.03	0.191
1.66497e+09	0.029	0.192
1.66497e+09	0.03	0.191
1.66497e+09	0.031	0.19
1.66497e+09	0.031	0.19
1.66497e+09	0.03	0.19
1.66497e+09	0.029	0.191
1.66497e+09	0.03	0.191
1.66497e+09	0.03	0.19
1.66497e+09	0.03	0.191
1.66497e+09	0.029	0.191
1.66497e+09	0.031	0.188
1.66497e+09	0.031	0.189
1.66497e+09	0.03	0.189
1.66497e+09	0.03	0.189
1.66497e+09	0.029	0.19
1.66497e+09	0.029	0.191
1.66497e+09	0.03	0.191
1.66497e+09	0.03	0.19
1.66497e+09	0.03	0.189
1.66497e+09	0.03	0.19
1.66497e+09	0.03	0.19
1.66497e+09	0.031	0.192
1.66497e+09	0.031	0.192
1.66497e+09	0.03	0.191
1.66497e+09	0.03	0.191
1.66497e+09	0.029	0.191
1.66497e+09	0.03	0.191
1.66497e+09	0.031	0.192
1.66497e+09	0.029	0.191
1.66497e+09	0.031	0.19
1.66497e+09	0.03	0.188
1.66497e+09	0.031	0.184
1.66497e+09	0.029	0.183
1.66497e+09	0.03	0.182
1.66497e+09	0.029	0.183
1.66497e+09	0.031	0.184
1.66497e+09	0.031	0.183
1.66497e+09	0.03	0.182
1.66497e+09	0.03	0.183
1.66497e+09	0.029	0.184
1.66497e+09	0.03	0.182
1.66497e+09	0.029	0.179
1.66497e+09	0.029	0.177
1.66497e+09	0.03	0.178
1.66497e+09	0.03	0.178
1.66497e+09	0.03	0.18
1.66497e+09	0.03	0.18
1.66497e+09	0.029	0.179
1.66497e+09	0.029	0.178
1.66497e+09	0.03	0.18
1.66497e+09	0.03	0.181
1.66497e+09	0.031	0.183
1.66497e+09	0.029	0.185
1.66497e+09	0.029	0.187
1.66497e+09	0.03	0.187
1.66497e+09	0.031	0.186
1.66497e+09	0.029	0.188
1.66497e+09	0.031	0.188
1.66497e+09	0.031	0.187
1.66497e+09	-0.000000000000000000e+00	0.075
1.66497e+09	-0.000000000000000000e+00	0.023
1.66497e+09	-0.000000000000000000e+00	0.017
1.66497e+09	-0.000000000000000000e+00	0.015
1.66497e+09	-0.000000000000000000e+00	0.014
1.66497e+09	-0.000000000000000000e+00	0.013
1.66497e+09	-0.000000000000000000e+00	0.012
1.66497e+09	-0.000000000000000000e+00	0.012
1.66497e+09	-0.000000000000000000e+00	0.011
1.66497e+09	-0.000000000000000000e+00	0.011
1.66497e+09	-0.000000000000000000e+00	0.01
1.66497e+09	-0.000000000000000000e+00	0.01
1.66497e+09	-0.000000000000000000e+00	0.01
1.66497e+09	-0.000000000000000000e+00	0.009
1.66497e+09	-0.000000000000000000e+00	0.01
1.66497e+09	-0.000000000000000000e+00	0.009
1.66497e+09	-0.000000000000000000e+00	0.009
1.66497e+09	-0.000000000000000000e+00	0.008
1.66497e+09	-0.000000000000000000e+00	0.006
1.66497e+09	-0.000000000000000000e+00	0.004
1.66497e+09	-0.000000000000000000e+00	0.002
1.66497e+09	-0.000000000000000000e+00	0.001
1.66497e+09	-0.000000000000000000e+00	0.001
1.66497e+09	-0.000000000000000000e+00	0.001
1.66497e+09	-0.000000000000000000e+00	0.001
1.66497e+09	-0.000000000000000000e+00	0.002
1.66497e+09	-0.000000000000000000e+00	0.001
1.66497e+09	-0.000000000000000000e+00	0.001
1.66497e+09	-0.000000000000000000e+00	0.001
1.66497e+09	-0.000000000000000000e+00	0.001
1.66497e+09	-0.000000000000000000e+00	0.001
1.66497e+09	-0.000000000000000000e+00	0.001
1.66497e+09	-0.000000000000000000e+00	0.001
1.66497e+09	-0.000000000000000000e+00	0.001
1.66497e+09	-0.000000000000000000e+00	0.001
1.66497e+09	-0.000000000000000000e+00	0.001
1.66497e+09	-0.000000000000000000e+00	0.001
1.66497e+09	-0.000000000000000000e+00	0.001
1.66497e+09	-0.000000000000000000e+00	0.002
1.66497e+09	-0.000000000000000000e+00	0.001
1.66497e+09	-0.000000000000000000e+00	0.001
1.66497e+09	-0.000000000000000000e+00	0.001
1.66497e+09	-0.000000000000000000e+00	0.001
1.66497e+09	-0.000000000000000000e+00	0.001
1.66497e+09	-0.000000000000000000e+00	0.001
1.66497e+09	-0.000000000000000000e+00	0.001
1.66497e+09	-0.000000000000000000e+00	0.001
1.66497e+09	-0.000000000000000000e+00	0.001
1.66497e+09	-0.000000000000000000e+00	0.001
1.66497e+09	-0.000000000000000000e+00	0.001
1.66497e+09	-0.000000000000000000e+00	0.001
1.66497e+09	-0.000000000000000000e+00	0.001
1.66497e+09	-0.000000000000000000e+00	0.001
1.66497e+09	-0.000000000000000000e+00	0.001
1.66497e+09	-0.000000000000000000e+00	0.001
1.66497e+09	-0.000000000000000000e+00	0.001
1.66497e+09	-0.000000000000000000e+00	0.001
1.66497e+09	-0.000000000000000000e+00	0.001
1.66497e+09	-0.000000000000000000e+00	0.001
1.66497e+09	-0.000000000000000000e+00	0.001
1.66497e+09	-0.000000000000000000e+00	0.001
1.66497e+09	-0.000000000000000000e+00	0.001
1.66497e+09	-0.000000000000000000e+00	0.001
1.66497e+09	-0.000000000000000000e+00	0.001
1.66497e+09	-0.000000000000000000e+00	0.001
1.66497e+09	-0.000000000000000000e+00	0.001
1.66497e+09	-0.000000000000000000e+00	0.001
1.66497e+09	-0.000000000000000000e+00	0.001
1.66497e+09	-0.000000000000000000e+00	0.002
1.66497e+09	-0.000000000000000000e+00	0.001
1.66497e+09	-0.000000000000000000e+00	0.001
1.66497e+09	-0.000000000000000000e+00	0.001
1.66497e+09	-0.000000000000000000e+00	0.001
1.66497e+09	-0.000000000000000000e+00	0.001
1.66497e+09	-0.000000000000000000e+00	0.001
1.66497e+09	-0.000000000000000000e+00	0.001
1.66497e+09	-0.000000000000000000e+00	0.001
1.66497e+09	-0.000000000000000000e+00	0.001
1.66497e+09	-0.000000000000000000e+00	0.001
1.66497e+09	-0.000000000000000000e+00	0.001
1.66497e+09	-0.000000000000000000e+00	0.001
1.66497e+09	-0.000000000000000000e+00	0.001
1.66497e+09	-0.000000000000000000e+00	0.001
1.66497e+09	-0.000000000000000000e+00	0.001
1.66497e+09	-0.000000000000000000e+00	0.001
1.66497e+09	-0.000000000000000000e+00	0.002
1.66497e+09	-0.000000000000000000e+00	0.001
1.66497e+09	-0.000000000000000000e+00	0.001
1.66497e+09	-0.000000000000000000e+00	0.001
1.66497e+09	-0.000000000000000000e+00	0.001
1.66497e+09	-0.000000000000000000e+00	0.001
1.66497e+09	-0.000000000000000000e+00	0.001
1.66497e+09	-0.000000000000000000e+00	0.001
1.66497e+09	-0.000000000000000000e+00	0.001
1.66497e+09	-0.000000000000000000e+00	0.001
1.66497e+09	-0.000000000000000000e+00	0.001
1.66497e+09	-0.000000000000000000e+00	0.001
1.66497e+09	-0.000000000000000000e+00	0.001
1.66497e+09	-0.000000000000000000e+00	0.001
1.66497e+09	-0.000000000000000000e+00	0.001
1.66497e+09	-0.000000000000000000e+00	0.001
1.66497e+09	-0.000000000000000000e+00	0.001
1.66497e+09	-0.000000000000000000e+00	0.001
1.66497e+09	-0.000000000000000000e+00	0.001
1.66497e+09	-0.000000000000000000e+00	0.001
1.66497e+09	-0.000000000000000000e+00	0.001
1.66497e+09	-0.000000000000000000e+00	0.001
1.66497e+09	-0.000000000000000000e+00	0.001
1.66497e+09	-0.000000000000000000e+00	0.001
1.66497e+09	-0.000000000000000000e+00	0.001
1.66497e+09	-0.000000000000000000e+00	0.001
1.66497e+09	-0.000000000000000000e+00	0.001
1.66497e+09	-0.000000000000000000e+00	0.001
1.66497e+09	-0.000000000000000000e+00	0.001
1.66497e+09	-0.000000000000000000e+00	0.001
1.66497e+09	-0.000000000000000000e+00	0.001
1.66497e+09	-0.000000000000000000e+00	0.002
1.66497e+09	-0.000000000000000000e+00	0.001
1.66497e+09	-0.000000000000000000e+00	0.001
1.66497e+09	-0.000000000000000000e+00	0.001
1.66497e+09	-0.000000000000000000e+00	0.001
1.66497e+09	-0.000000000000000000e+00	0.001
1.66497e+09	-0.000000000000000000e+00	0.001
1.66497e+09	-0.000000000000000000e+00	0.002
1.66497e+09	-0.000000000000000000e+00	0.001
1.66497e+09	-0.000000000000000000e+00	0.001
1.66497e+09	-0.000000000000000000e+00	0.001
1.66497e+09	-0.000000000000000000e+00	0.001
1.66497e+09	-0.000000000000000000e+00	0.001
1.66497e+09	-0.000000000000000000e+00	0.001
1.66497e+09	-0.000000000000000000e+00	0.001
1.66497e+09	-0.000000000000000000e+00	0.001
1.66497e+09	-0.000000000000000000e+00	0.001
1.66497e+09	-0.000000000000000000e+00	0.001
1.66497e+09	-0.000000000000000000e+00	0.001
1.66497e+09	-0.000000000000000000e+00	0.001
1.66497e+09	-0.000000000000000000e+00	0.001
1.66497e+09	-0.000000000000000000e+00	0.001
1.66497e+09	-0.000000000000000000e+00	0.001
1.66497e+09	-0.000000000000000000e+00	0.001
1.66497e+09	-0.000000000000000000e+00	0.001
1.66497e+09	-0.000000000000000000e+00	0.001
1.66497e+09	-0.000000000000000000e+00	0.001
1.66497e+09	-0.000000000000000000e+00	0.001
1.66497e+09	-0.000000000000000000e+00	0.001
1.66497e+09	-0.000000000000000000e+00	0.001
1.66497e+09	-0.000000000000000000e+00	0.001
1.66497e+09	-0.000000000000000000e+00	0.001
1.66497e+09	-0.000000000000000000e+00	0.001
1.66497e+09	-0.000000000000000000e+00	0.001
1.66497e+09	-0.000000000000000000e+00	0.001
1.66497e+09	-0.000000000000000000e+00	0.002
1.66497e+09	-0.000000000000000000e+00	0.001
1.66497e+09	-0.000000000000000000e+00	0.002
1.66497e+09	-0.000000000000000000e+00	0.001
1.66497e+09	-0.000000000000000000e+00	0.001
1.66497e+09	-0.000000000000000000e+00	0.001
1.66497e+09	-0.000000000000000000e+00	0.001
1.66497e+09	-0.000000000000000000e+00	0.001
1.66497e+09	-0.000000000000000000e+00	0.001
1.66497e+09	-0.000000000000000000e+00	0.002
1.66497e+09	-0.000000000000000000e+00	0.001
1.66497e+09	-0.000000000000000000e+00	0.002
1.66497e+09	-0.000000000000000000e+00	0.001
1.66497e+09	-0.000000000000000000e+00	0.002
1.66497e+09	-0.000000000000000000e+00	0.001
1.66497e+09	-0.000000000000000000e+00	0.001
1.66497e+09	-0.000000000000000000e+00	0.001
1.66497e+09	-0.000000000000000000e+00	0.001
1.66497e+09	-0.000000000000000000e+00	0.001
1.66497e+09	-0.000000000000000000e+00	0.001
1.66497e+09	-0.000000000000000000e+00	0.001
1.66497e+09	-0.000000000000000000e+00	0.001
1.66497e+09	-0.000000000000000000e+00	0.002
1.66497e+09	-0.000000000000000000e+00	0.001
1.66497e+09	-0.000000000000000000e+00	0.001
1.66497e+09	-0.000000000000000000e+00	0.001
1.66497e+09	-0.000000000000000000e+00	0.001
1.66497e+09	-0.000000000000000000e+00	0.001
1.66497e+09	-0.000000000000000000e+00	0.001
1.66497e+09	-0.000000000000000000e+00	0.001
1.66497e+09	-0.000000000000000000e+00	0.002
1.66497e+09	-0.000000000000000000e+00	0.000000000000000000e+00
1.66497e+09	-0.000000000000000000e+00	0.001
1.66497e+09	-0.000000000000000000e+00	0.001
1.66497e+09	-0.000000000000000000e+00	0.001
1.66497e+09	-0.000000000000000000e+00	0.001
1.66497e+09	-0.000000000000000000e+00	0.001
1.66497e+09	-0.000000000000000000e+00	0.001
1.66497e+09	-0.000000000000000000e+00	0.001
1.66497e+09	-0.000000000000000000e+00	0.001
1.66497e+09	-0.000000000000000000e+00	0.001
1.66497e+09	-0.000000000000000000e+00	0.001
1.66497e+09	-0.000000000000000000e+00	0.001
1.66497e+09	-0.000000000000000000e+00	0.001
1.66497e+09	-0.000000000000000000e+00	0.001
1.66497e+09	-0.000000000000000000e+00	0.001
1.66497e+09	-0.000000000000000000e+00	0.001
1.66497e+09	-0.000000000000000000e+00	0.001
1.66497e+09	-0.000000000000000000e+00	0.001
1.66497e+09	-0.000000000000000000e+00	0.001
1.66497e+09	-0.000000000000000000e+00	0.001
1.66497e+09	-0.000000000000000000e+00	0.001
1.66497e+09	-0.000000000000000000e+00	0.001
1.66497e+09	-0.000000000000000000e+00	0.002
1.66497e+09	-0.000000000000000000e+00	0.001
1.66497e+09	-0.000000000000000000e+00	0.001
1.66497e+09	-0.000000000000000000e+00	0.001
1.66497e+09	-0.000000000000000000e+00	0.001
1.66497e+09	-0.000000000000000000e+00	0.001
1.66497e+09	-0.000000000000000000e+00	0.001
1.66497e+09	-0.000000000000000000e+00	0.001
1.66497e+09	-0.000000000000000000e+00	0.001
1.66497e+09	-0.000000000000000000e+00	0.001
1.66497e+09	-0.000000000000000000e+00	0.001
1.66497e+09	-0.000000000000000000e+00	0.001
1.66497e+09	-0.000000000000000000e+00	0.001
1.66497e+09	-0.000000000000000000e+00	0.001
1.66497e+09	-0.000000000000000000e+00	0.001
1.66497e+09	-0.000000000000000000e+00	0.001
1.66497e+09	-0.000000000000000000e+00	0.001
1.66497e+09	-0.000000000000000000e+00	0.001
1.66497e+09	-0.000000000000000000e+00	0.002
1.66497e+09	-0.000000000000000000e+00	0.001
1.66497e+09	-0.000000000000000000e+00	0.001
1.66497e+09	-0.000000000000000000e+00	0.001
1.66497e+09	-0.000000000000000000e+00	0.001
1.66497e+09	-0.000000000000000000e+00	0.001
1.66497e+09	-0.000000000000000000e+00	0.001
1.66497e+09	-0.000000000000000000e+00	0.001
1.66497e+09	-0.000000000000000000e+00	0.001
1.66497e+09	-0.000000000000000000e+00	0.001
1.66497e+09	-0.000000000000000000e+00	0.002
1.66497e+09	-0.000000000000000000e+00	0.001
1.66497e+09	-0.000000000000000000e+00	0.001
1.66497e+09	-0.000000000000000000e+00	0.002
1.66497e+09	-0.000000000000000000e+00	0.001
1.66497e+09	-0.000000000000000000e+00	0.002
1.66497e+09	-0.000000000000000000e+00	0.001
1.66497e+09	-0.000000000000000000e+00	0.001
1.66497e+09	-0.000000000000000000e+00	0.001
1.66497e+09	-0.000000000000000000e+00	0.001
1.66497e+09	-0.000000000000000000e+00	0.001
1.66497e+09	-0.000000000000000000e+00	0.001
1.66497e+09	-0.000000000000000000e+00	0.001
1.66497e+09	-0.000000000000000000e+00	0.001
1.66497e+09	-0.000000000000000000e+00	0.001
1.66497e+09	-0.000000000000000000e+00	0.001
1.66497e+09	-0.000000000000000000e+00	0.001
1.66497e+09	-0.000000000000000000e+00	0.001
1.66497e+09	-0.000000000000000000e+00	0.001
1.66497e+09	-0.000000000000000000e+00	0.001
1.66497e+09	-0.000000000000000000e+00	0.001
1.66497e+09	-0.000000000000000000e+00	0.002
1.66497e+09	-0.000000000000000000e+00	0.001
1.66497e+09	-0.000000000000000000e+00	0.001
1.66497e+09	-0.000000000000000000e+00	0.001
1.66497e+09	-0.000000000000000000e+00	0.001
1.66497e+09	-0.000000000000000000e+00	0.001
1.66497e+09	-0.000000000000000000e+00	0.001
1.66497e+09	-0.000000000000000000e+00	0.001
1.66497e+09	-0.000000000000000000e+00	0.001
1.66497e+09	-0.000000000000000000e+00	0.001
1.66497e+09	-0.000000000000000000e+00	0.001
1.66497e+09	-0.000000000000000000e+00	0.001
1.66497e+09	-0.000000000000000000e+00	0.001
1.66497e+09	-0.000000000000000000e+00	0.001
1.66497e+09	-0.000000000000000000e+00	0.001
1.66497e+09	-0.000000000000000000e+00	0.001
1.66497e+09	-0.000000000000000000e+00	0.001
1.66497e+09	-0.000000000000000000e+00	0.001
1.66497e+09	-0.000000000000000000e+00	0.002
1.66497e+09	-0.000000000000000000e+00	0.001
1.66497e+09	-0.000000000000000000e+00	0.001
1.66497e+09	-0.000000000000000000e+00	0.001
1.66497e+09	-0.000000000000000000e+00	0.001
1.66497e+09	-0.000000000000000000e+00	0.001
1.66497e+09	-0.000000000000000000e+00	0.001
1.66497e+09	-0.000000000000000000e+00	0.001
1.66497e+09	-0.000000000000000000e+00	0.001
1.66497e+09	-0.000000000000000000e+00	0.001
1.66497e+09	-0.000000000000000000e+00	0.001
1.66497e+09	-0.000000000000000000e+00	0.001
1.66497e+09	-0.000000000000000000e+00	0.001
1.66497e+09	-0.000000000000000000e+00	0.001
1.66497e+09	-0.000000000000000000e+00	0.001
1.66497e+09	-0.000000000000000000e+00	0.001
1.66497e+09	-0.000000000000000000e+00	0.001
1.66497e+09	-0.000000000000000000e+00	0.001
1.66497e+09	-0.000000000000000000e+00	0.001
1.66497e+09	-0.000000000000000000e+00	0.001
1.66497e+09	-0.000000000000000000e+00	0.001
1.66497e+09	-0.000000000000000000e+00	0.001
1.66497e+09	-0.000000000000000000e+00	0.001
1.66497e+09	-0.000000000000000000e+00	0.001
1.66497e+09	-0.000000000000000000e+00	0.001
1.66497e+09	-0.000000000000000000e+00	0.001
1.66497e+09	-0.000000000000000000e+00	0.001
1.66497e+09	-0.000000000000000000e+00	0.001
1.66497e+09	-0.000000000000000000e+00	0.001
1.66497e+09	-0.000000000000000000e+00	0.001
1.66497e+09	-0.000000000000000000e+00	0.001
1.66497e+09	-0.000000000000000000e+00	0.001
1.66497e+09	-0.000000000000000000e+00	0.001
1.66497e+09	-0.000000000000000000e+00	0.001
1.66497e+09	-0.000000000000000000e+00	0.001
1.66497e+09	-0.000000000000000000e+00	0.001
1.66497e+09	-0.000000000000000000e+00	0.001
1.66497e+09	-0.000000000000000000e+00	0.001
1.66497e+09	-0.000000000000000000e+00	0.001
1.66497e+09	-0.000000000000000000e+00	0.001
1.66497e+09	-0.000000000000000000e+00	0.001
1.66497e+09	-0.000000000000000000e+00	0.001
1.66497e+09	-0.000000000000000000e+00	0.001
1.66497e+09	-0.000000000000000000e+00	0.001
1.66497e+09	-0.000000000000000000e+00	0.001
1.66497e+09	-0.000000000000000000e+00	0.001
1.66497e+09	-0.000000000000000000e+00	0.001
1.66497e+09	-0.000000000000000000e+00	0.001
1.66497e+09	-0.000000000000000000e+00	0.001
1.66497e+09	-0.000000000000000000e+00	0.001
1.66497e+09	-0.000000000000000000e+00	0.001
1.66497e+09	-0.000000000000000000e+00	0.001
1.66497e+09	-0.000000000000000000e+00	0.001
1.66497e+09	-0.000000000000000000e+00	0.002
1.66497e+09	-0.000000000000000000e+00	0.001
1.66497e+09	-0.000000000000000000e+00	0.001
1.66497e+09	-0.000000000000000000e+00	0.001
1.66497e+09	-0.000000000000000000e+00	0.001
1.66497e+09	-0.000000000000000000e+00	0.001
1.66497e+09	-0.000000000000000000e+00	0.001
1.66497e+09	-0.000000000000000000e+00	0.001
1.66497e+09	-0.000000000000000000e+00	0.001
1.66497e+09	-0.000000000000000000e+00	0.001
1.66497e+09	-0.000000000000000000e+00	0.001
1.66497e+09	-0.000000000000000000e+00	0.001
1.66497e+09	-0.000000000000000000e+00	0.001
1.66497e+09	-0.000000000000000000e+00	0.001
1.66497e+09	-0.000000000000000000e+00	0.001
1.66497e+09	-0.000000000000000000e+00	0.001
1.66497e+09	-0.000000000000000000e+00	0.002
1.66497e+09	-0.000000000000000000e+00	0.001
1.66497e+09	-0.000000000000000000e+00	0.001
1.66497e+09	-0.000000000000000000e+00	0.001
1.66497e+09	-0.000000000000000000e+00	0.001
1.66497e+09	-0.000000000000000000e+00	0.001
1.66497e+09	-0.000000000000000000e+00	0.001
1.66497e+09	-0.000000000000000000e+00	0.001
1.66497e+09	-0.000000000000000000e+00	0.001
1.66497e+09	-0.000000000000000000e+00	0.001
1.66497e+09	-0.000000000000000000e+00	0.001
1.66497e+09	-0.000000000000000000e+00	0.001
1.66497e+09	-0.000000000000000000e+00	0.001
1.66497e+09	-0.000000000000000000e+00	0.001
1.66497e+09	-0.000000000000000000e+00	0.001
1.66497e+09	-0.000000000000000000e+00	0.001
1.66497e+09	-0.000000000000000000e+00	0.002
1.66497e+09	-0.000000000000000000e+00	0.001
1.66497e+09	-0.000000000000000000e+00	0.001
1.66497e+09	-0.000000000000000000e+00	0.001
1.66497e+09	-0.000000000000000000e+00	0.001
1.66497e+09	-0.000000000000000000e+00	0.001
1.66497e+09	-0.000000000000000000e+00	0.001
1.66497e+09	-0.000000000000000000e+00	0.001
1.66497e+09	-0.000000000000000000e+00	0.002
1.66497e+09	-0.000000000000000000e+00	0.001
1.66497e+09	-0.000000000000000000e+00	0.001
1.66497e+09	-0.000000000000000000e+00	0.001
1.66497e+09	-0.000000000000000000e+00	0.001
1.66497e+09	-0.000000000000000000e+00	0.002
1.66497e+09	-0.000000000000000000e+00	0.001
1.66497e+09	-0.000000000000000000e+00	0.001
1.66497e+09	-0.000000000000000000e+00	0.001
1.66497e+09	-0.000000000000000000e+00	0.001
1.66497e+09	-0.000000000000000000e+00	0.001
1.66497e+09	-0.000000000000000000e+00	0.001
1.66497e+09	-0.000000000000000000e+00	0.001
1.66497e+09	-0.000000000000000000e+00	0.001
1.66497e+09	-0.000000000000000000e+00	0.002
1.66497e+09	-0.000000000000000000e+00	0.001
1.66497e+09	-0.000000000000000000e+00	0.001
1.66497e+09	-0.000000000000000000e+00	0.001
1.66497e+09	-0.000000000000000000e+00	0.001
1.66497e+09	-0.000000000000000000e+00	0.001
1.66497e+09	-0.000000000000000000e+00	0.001
1.66497e+09	-0.000000000000000000e+00	0.001
1.66497e+09	-0.000000000000000000e+00	0.001
1.66497e+09	-0.000000000000000000e+00	0.001
1.66497e+09	-0.000000000000000000e+00	0.001
1.66497e+09	-0.000000000000000000e+00	0.001
1.66497e+09	-0.000000000000000000e+00	0.001
1.66497e+09	-0.000000000000000000e+00	0.001
1.66497e+09	-0.000000000000000000e+00	0.001
1.66497e+09	-0.000000000000000000e+00	0.001
1.66497e+09	-0.000000000000000000e+00	0.001
1.66497e+09	-0.000000000000000000e+00	0.001
1.66497e+09	-0.000000000000000000e+00	0.001
1.66497e+09	-0.000000000000000000e+00	0.001
1.66497e+09	-0.000000000000000000e+00	0.001
1.66497e+09	-0.000000000000000000e+00	0.001
1.66497e+09	-0.000000000000000000e+00	0.001
1.66497e+09	-0.000000000000000000e+00	0.001
1.66497e+09	-0.000000000000000000e+00	0.001
1.66497e+09	-0.000000000000000000e+00	0.001
1.66497e+09	-0.000000000000000000e+00	0.001
1.66497e+09	-0.000000000000000000e+00	0.002
1.66497e+09	-0.000000000000000000e+00	0.001
1.66497e+09	-0.000000000000000000e+00	0.001
1.66497e+09	-0.000000000000000000e+00	0.001
1.66497e+09	-0.000000000000000000e+00	0.001
1.66497e+09	-0.000000000000000000e+00	0.001
1.66497e+09	-0.000000000000000000e+00	0.001
1.66497e+09	-0.000000000000000000e+00	0.001
1.66497e+09	-0.000000000000000000e+00	0.001
1.66497e+09	-0.000000000000000000e+00	0.002
1.66497e+09	-0.000000000000000000e+00	0.001
1.66497e+09	-0.000000000000000000e+00	0.001
1.66497e+09	-0.000000000000000000e+00	0.001
1.66497e+09	-0.000000000000000000e+00	0.001
1.66497e+09	-0.000000000000000000e+00	0.001
1.66497e+09	-0.000000000000000000e+00	0.001
1.66497e+09	-0.000000000000000000e+00	0.001
1.66497e+09	-0.000000000000000000e+00	0.001
1.66497e+09	-0.000000000000000000e+00	0.001
1.66497e+09	-0.000000000000000000e+00	0.001
1.66497e+09	-0.000000000000000000e+00	0.001
1.66497e+09	-0.000000000000000000e+00	0.001
1.66497e+09	-0.000000000000000000e+00	0.002
1.66497e+09	-0.000000000000000000e+00	0.001
1.66497e+09	-0.000000000000000000e+00	0.001
1.66497e+09	-0.000000000000000000e+00	0.001
1.66497e+09	-0.000000000000000000e+00	0.001
1.66497e+09	-0.000000000000000000e+00	0.001
1.66497e+09	-0.000000000000000000e+00	0.001
1.66497e+09	-0.000000000000000000e+00	0.001
1.66497e+09	-0.000000000000000000e+00	0.001
1.66497e+09	-0.000000000000000000e+00	0.002
1.66497e+09	-0.000000000000000000e+00	0.001
1.66497e+09	-0.000000000000000000e+00	0.001
1.66497e+09	-0.000000000000000000e+00	0.001
1.66497e+09	-0.000000000000000000e+00	0.001
1.66497e+09	-0.000000000000000000e+00	0.001
1.66497e+09	-0.000000000000000000e+00	0.001
1.66497e+09	-0.000000000000000000e+00	0.001
1.66497e+09	-0.000000000000000000e+00	0.001
1.66497e+09	-0.000000000000000000e+00	0.001
1.66497e+09	-0.000000000000000000e+00	0.001
1.66497e+09	-0.000000000000000000e+00	0.001
1.66497e+09	-0.000000000000000000e+00	0.001
1.66497e+09	-0.000000000000000000e+00	0.001
1.66497e+09	-0.000000000000000000e+00	0.002
1.66497e+09	-0.000000000000000000e+00	0.001
1.66497e+09	-0.000000000000000000e+00	0.001
1.66497e+09	-0.000000000000000000e+00	0.001
1.66497e+09	-0.000000000000000000e+00	0.001
1.66497e+09	-0.000000000000000000e+00	0.001
1.66497e+09	-0.000000000000000000e+00	0.001
1.66497e+09	-0.000000000000000000e+00	0.001
1.66497e+09	-0.000000000000000000e+00	0.001
1.66497e+09	-0.000000000000000000e+00	0.001
1.66497e+09	-0.000000000000000000e+00	0.001
1.66497e+09	-0.000000000000000000e+00	0.001
1.66497e+09	-0.000000000000000000e+00	0.001
1.66497e+09	-0.000000000000000000e+00	0.001
1.66497e+09	-0.000000000000000000e+00	0.001
1.66497e+09	-0.000000000000000000e+00	0.001
1.66497e+09	-0.000000000000000000e+00	0.001
1.66497e+09	-0.000000000000000000e+00	0.001
1.66497e+09	-0.000000000000000000e+00	0.002
1.66497e+09	-0.000000000000000000e+00	0.001
1.66497e+09	-0.000000000000000000e+00	0.001
1.66497e+09	-0.000000000000000000e+00	0.001
1.66497e+09	-0.000000000000000000e+00	0.001
1.66497e+09	-0.000000000000000000e+00	0.001
1.66497e+09	-0.000000000000000000e+00	0.001
1.66497e+09	-0.000000000000000000e+00	0.001
1.66497e+09	-0.000000000000000000e+00	0.001
1.66497e+09	-0.000000000000000000e+00	0.001
1.66497e+09	-0.000000000000000000e+00	0.001
1.66497e+09	-0.000000000000000000e+00	0.001
1.66497e+09	-0.000000000000000000e+00	0.001
1.66497e+09	-0.000000000000000000e+00	0.001
1.66497e+09	-0.000000000000000000e+00	0.001
1.66497e+09	-0.000000000000000000e+00	0.001
1.66497e+09	-0.000000000000000000e+00	0.001
1.66497e+09	-0.000000000000000000e+00	0.002
1.66497e+09	-0.000000000000000000e+00	0.001
1.66497e+09	-0.000000000000000000e+00	0.001
1.66497e+09	-0.000000000000000000e+00	0.001
1.66497e+09	-0.000000000000000000e+00	0.001
1.66497e+09	-0.000000000000000000e+00	0.001
1.66497e+09	-0.000000000000000000e+00	0.001
1.66497e+09	-0.000000000000000000e+00	0.001
1.66497e+09	-0.000000000000000000e+00	0.001
1.66497e+09	-0.000000000000000000e+00	0.002
1.66497e+09	-0.000000000000000000e+00	0.001
1.66497e+09	-0.000000000000000000e+00	0.001